onset	duration	trial_type	ExcludeBlock	RT	ExpValueLeft	ExpValueRight	Choice_isLeft	SearchEvidence	SearchValue	SearchCosts	OfferValue	Choice_isForage
6.005569556	2.7	forage	0	4.051	n/a	n/a	n/a	20.77916101	75	10	30.88199789	1
15.71094076	2.7	forage	0	1.119	n/a	n/a	n/a	-20.59594755	63.33333333	10	64.57693275	0
24.63119862	2.7	engage	0	0.94	75	14.6	1	n/a	n/a	n/a	n/a	n/a
35.76954131	2.7	forage	0	1.103	n/a	n/a	n/a	-18.52006941	68.33333333	5	66.37264222	0
46.47984909	2.7	engage	0	1.218	55.25	14.35	1	n/a	n/a	n/a	n/a	n/a
55.48487647	2.7	forage	0	5.757	n/a	n/a	n/a	9.0021176	80	10	45.8283537	1
66.88374621	2.7	forage	0	1.78	n/a	n/a	n/a	-18.7186275	70	5	66.37596197	0
73.57812951	2.7	engage	0	1.309	33.6	86.45	0	n/a	n/a	n/a	n/a	n/a
84.96962956	2.7	forage	0	1.809	n/a	n/a	n/a	-1.270118874	85	20	54.30478849	0
91.58052228	2.7	engage	0	1.057	67.5	12.3	1	n/a	n/a	n/a	n/a	n/a
100.8700321	2.7	forage	0	4.366	n/a	n/a	n/a	20.19167547	73.33333333	5	30.95530909	1
113.6037174	2.7	forage	0	1.986	n/a	n/a	n/a	30.09375954	81.66666667	20	20.56254716	1
121.763022	2.7	forage	0	2.604	n/a	n/a	n/a	-20.59626109	58.33333333	10	60.57220462	0
129.3080599	2.7	engage	0	0.752	75	17.6	1	n/a	n/a	n/a	n/a	n/a
138.4952596	2.7	forage	0	2.512	n/a	n/a	n/a	-7.950678202	70	5	57.19684624	0
146.245175	2.7	engage	0	1.148	90.2	40	1	n/a	n/a	n/a	n/a	n/a
154.2272471	2.7	forage	0	4.659	n/a	n/a	n/a	1.235870094	63.33333333	10	40.60444646	1
164.535366	2.7	forage	0	1.082	n/a	n/a	n/a	-15.01990678	65	10	54.31253458	0
170.1389215	2.7	engage	0	0.752	16.2	86.5	0	n/a	n/a	n/a	n/a	n/a
179.1984863	2.7	forage	0	1.422	n/a	n/a	n/a	-9.545542645	81.66666667	20	64.57693275	0
185.8545498	2.7	engage	0	2.238	61.2	23.2	1	n/a	n/a	n/a	n/a	n/a
196.2423864	2.7	forage	0	1.606	n/a	n/a	n/a	-2.020899351	81.66666667	20	56.54562145	0
204.9367751	2.7	engage	0	3.362	48.15	54.45	0	n/a	n/a	n/a	n/a	n/a
215.390638	2.7	forage	0	3.698	n/a	n/a	n/a	15.55276395	66.66666667	5	30.95530909	1
224.7032719	2.7	forage	0	1.95	n/a	n/a	n/a	0.925786765	60	10	41.7829586	1
237.0570305	2.7	forage	0	5.76	n/a	n/a	n/a	-6.464129906	66.66666667	20	49.5	0
248.6674242	2.7	engage	0	1.208	80.1	6.6	1	n/a	n/a	n/a	n/a	n/a
262.3073341	2.7	forage	0	1.238	n/a	n/a	n/a	-10.91221099	68.33333333	5	61.91947085	0
268.0995113	2.7	engage	0	1.097	51.5	43.2	1	n/a	n/a	n/a	n/a	n/a
279.6912618	2.7	forage	0	3.273	n/a	n/a	n/a	4.675908321	86.66666667	5	49.5	0
289.0315758	2.7	engage	0	2.884	14	23.85	0	n/a	n/a	n/a	n/a	n/a
300.4018061	2.7	forage	0	1.221	n/a	n/a	n/a	-12.77055312	68.33333333	20	61.76399577	0
310.0469792	2.7	engage	0	0.675	17.4	89.4	0	n/a	n/a	n/a	n/a	n/a
320.5846234	2.7	forage	0	2.016	n/a	n/a	n/a	-7.562359372	60	10	47.22541623	0
329.1291174	2.7	engage	0	3.921	80.55	67.6	1	n/a	n/a	n/a	n/a	n/a
347.1048446	2.7	forage	0	1.979	n/a	n/a	n/a	12.97084486	71.66666667	20	36.35848297	1
356.897621	2.7	forage	0	2.392	n/a	n/a	n/a	0.801425146	71.66666667	10	46.92580856	0
362.7967039	2.7	engage	0	1.256	49.5	12.2	1	n/a	n/a	n/a	n/a	n/a
375.4348385	2.7	forage	0	1.168	n/a	n/a	n/a	-11.48129034	86.66666667	20	65.65944872	0
381.3093098	2.7	engage	0	1.174	109.85	31.5	1	n/a	n/a	n/a	n/a	n/a
392.2995385	2.7	forage	0	2.792	n/a	n/a	n/a	39.42029073	86.66666667	5	15.14858408	1
403.9342848	2.7	forage	0	1.702	n/a	n/a	n/a	-0.226112033	68.33333333	20	50.62677934	0
409.5575023	2.7	engage	0	1.051	25.5	37.8	0	n/a	n/a	n/a	n/a	n/a
422.9131815	2.7	forage	0	1.36	n/a	n/a	n/a	-0.03731033	81.66666667	10	56.09579498	0
430.7562537	2.7	engage	0	1.153	28.8	89.65	0	n/a	n/a	n/a	n/a	n/a
441.160853	2.7	forage	0	1.079	n/a	n/a	n/a	-19.18455477	58.33333333	10	58.13854937	0
447.0056487	2.7	engage	0	2.129	74.8	83.5	0	n/a	n/a	n/a	n/a	n/a
458.4946656	2.7	forage	0	1.021	n/a	n/a	n/a	-12.80288383	80	20	66.18009657	0
466.1374305	2.7	engage	0	2.137	65	78	1	n/a	n/a	n/a	n/a	n/a
475.5263244	2.7	forage	0	2.002	n/a	n/a	n/a	-19.44264708	65	20	66.18009657	0
482.486404	2.7	engage	0	3.373	53	72.8	0	n/a	n/a	n/a	n/a	n/a
493.2119544	2.7	forage	0	1.369	n/a	n/a	n/a	0.025820297	75	20	54.30478849	0
502.1352319	2.7	engage	0	1.915	21.5	18.45	0	n/a	n/a	n/a	n/a	n/a
511.6913343	2.7	forage	0	1.11	n/a	n/a	n/a	17.5475848	75	20	35.55703938	1
522.5220224	2.7	forage	0	1.312	n/a	n/a	n/a	2.711463206	73.33333333	10	48.43269956	0
531.2170045	2.7	engage	0	1.869	35.1	7.95	1	n/a	n/a	n/a	n/a	n/a
542.2392106	2.7	forage	0	3.69	n/a	n/a	n/a	8.568207501	66.66666667	10	40.42545647	1
553.5714294	2.7	forage	0	1.207	n/a	n/a	n/a	31.43567728	76.66666667	5	20.30222323	1
563.9707293	2.7	forage	0	1.63	n/a	n/a	n/a	-1.43195681	70	20	49.5	0
570.9143371	2.7	engage	0	1.294	79.65	8.7	1	n/a	n/a	n/a	n/a	n/a
583.2030149	2.7	forage	0	1.248	n/a	n/a	n/a	-22.03649883	61.66666667	10	66.17179719	0
590.0464383	2.7	engage	0	1.018	115.05	69.5	1	n/a	n/a	n/a	n/a	n/a
597.8567534	2.7	forage	0	2.117	n/a	n/a	n/a	19.04811294	85	5	38.15142598	1
608.166705	2.7	forage	0	2.073	n/a	n/a	n/a	-19.28840769	70	20	68.91723253	0
618.8613982	2.7	engage	0	3.757	81.9	38	1	n/a	n/a	n/a	n/a	n/a
630.8647588	2.7	forage	0	2.933	n/a	n/a	n/a	0.441637745	78.33333333	10	54.31253458	0
636.7603228	2.7	engage	0	1.21	15.15	80.5	0	n/a	n/a	n/a	n/a	n/a
649.9371135	2.7	forage	0	1.093	n/a	n/a	n/a	-7.594321211	70	10	57.20348574	0
657.5949959	2.7	engage	0	1.932	13.25	48.95	0	n/a	n/a	n/a	n/a	n/a
666.7647018	2.7	forage	0	3.286	n/a	n/a	n/a	16.91769864	80	20	40.42545647	1
676.7477561	2.7	forage	0	1.062	n/a	n/a	n/a	-4.768252771	76.66666667	10	58.67385946	0
684.5411948	2.7	engage	0	1.962	70.95	27.8	1	n/a	n/a	n/a	n/a	n/a
693.1613886	2.7	forage	0	2.16	n/a	n/a	n/a	4.025808561	76.66666667	5	51.40636789	0
701.059263	2.7	engage	0	0.97	77	15.75	1	n/a	n/a	n/a	n/a	n/a
713.2110866	2.7	forage	0	2.903	n/a	n/a	n/a	6.247848029	68.33333333	20	42.53654243	1
723.9103548	2.7	forage	0	3.092	n/a	n/a	n/a	25.52886005	71.66666667	5	25.60110155	1
735.7957857	2.7	forage	0	2.174	n/a	n/a	n/a	-15.74047751	55	10	55.69963785	0
742.4537629	2.7	engage	0	1.078	16.4	65.45	0	n/a	n/a	n/a	n/a	n/a
752.2492869	2.7	forage	0	1.005	n/a	n/a	n/a	-25.56747984	63.33333333	10	70.45427795	0
758.8528356	2.7	engage	0	1.968	70.2	13	1	n/a	n/a	n/a	n/a	n/a
767.9592569	2.7	forage	0	0.899	n/a	n/a	n/a	1.987093205	65	5	45.87704341	0
774.8017653	2.7	engage	0	0.792	59.4	21.35	1	n/a	n/a	n/a	n/a	n/a
784.8895487	2.7	forage	0	2.078	n/a	n/a	n/a	39.52613551	90	10	20.30222323	1
793.3226069	2.7	forage	0	0.997	n/a	n/a	n/a	-22.28507453	61.66666667	5	67.3110256	0
800.9668307	2.7	engage	0	4.224	45.1	51.35	0	n/a	n/a	n/a	n/a	n/a
814.489382	2.7	forage	0	1.106	n/a	n/a	n/a	13.70338514	95	5	45.88368291	0
821.0823222	2.7	engage	0	2.672	52.15	63	0	n/a	n/a	n/a	n/a	n/a
832.0066909	2.7	forage	0	3.861	n/a	n/a	n/a	21.17249635	81.66666667	10	32.28846637	1
842.5193862	2.7	forage	0	1	n/a	n/a	n/a	-12.78462519	61.66666667	10	56.53953523	0
848.4806571	2.7	engage	0	1.14	73.7	51.3	1	n/a	n/a	n/a	n/a	n/a
858.4678341	2.7	forage	0	2.915	n/a	n/a	n/a	-9.473522459	61.66666667	10	50.52746341	0
868.5794076	2.7	engage	0	1.104	86.5	14.35	1	n/a	n/a	n/a	n/a	n/a
878.7357229	2.7	forage	0	1.729	n/a	n/a	n/a	12.01643445	91.66666667	10	45.87704341	0
884.3789126	2.7	engage	0	1.437	45.45	15.4	1	n/a	n/a	n/a	n/a	n/a
894.540074	2.7	forage	0	0.788	n/a	n/a	n/a	-6.440283017	65	10	51.40636789	0
902.4940853	2.7	engage	0	3.853	60.5	44	0	n/a	n/a	n/a	n/a	n/a
912.6560881	2.7	forage	0	3.648	n/a	n/a	n/a	8.52608353	78.33333333	10	45.81396811	0
921.2595039	2.7	engage	0	1.487	22.95	35	0	n/a	n/a	n/a	n/a	n/a
931.7647563	2.7	forage	0	3.595	n/a	n/a	n/a	24.32688832	71.66666667	10	25.31338967	0
938.5084386	2.7	engage	0	2.704	13.5	23.1	0	n/a	n/a	n/a	n/a	n/a
947.5187964	2.7	forage	0	0.752	n/a	n/a	n/a	-10.8276864	78.33333333	5	60.86129973	0
955.3407348	2.7	engage	0	0.773	97.8	31.15	1	n/a	n/a	n/a	n/a	n/a
967.1802996	2.7	forage	0	2.861	n/a	n/a	n/a	26.57827071	85	10	30.29716815	1
976.5783766	2.7	forage	0	0.871	n/a	n/a	n/a	-14.1053334	66.66666667	10	60.91745888	0
983.4725393	2.7	engage	0	0.826	36	99	0	n/a	n/a	n/a	n/a	n/a
992.8618876	2.7	forage	0	3.732	n/a	n/a	n/a	0.180483879	85	20	55.55799507	0
1002.654549	2.7	engage	0	1.918	92.4	20.65	1	n/a	n/a	n/a	n/a	n/a
1010.962857	2.7	forage	0	3.183	n/a	n/a	n/a	-10.38654662	66.66666667	20	57.20348574	0
1017.270235	2.7	engage	0	2.198	29.75	48.4	0	n/a	n/a	n/a	n/a	n/a
1029.463237	2.7	forage	0	2.565	n/a	n/a	n/a	13.27854903	88.33333333	10	41.12509431	1
1037.674959	2.7	forage	0	1.199	n/a	n/a	n/a	-8.076773469	75	20	56.54562145	0
1044.268595	2.7	engage	0	1.045	78.3	25.3	1	n/a	n/a	n/a	n/a	n/a
1055.807111	2.7	forage	0	1.649	n/a	n/a	n/a	9.088726255	88.33333333	10	49.5	0
1064.367443	2.7	engage	0	2.226	9.5	42.75	0	n/a	n/a	n/a	n/a	n/a
1073.989579	2.7	forage	0	3.837	n/a	n/a	n/a	7.149326828	80	20	45.8283537	0
1083.032947	2.7	engage	0	3.777	28.75	28.8	0	n/a	n/a	n/a	n/a	n/a
1096.555024	2.7	forage	0	2.349	n/a	n/a	n/a	5.220218634	83.33333333	20	52.77244605	0
1104.264879	2.7	engage	0	2.923	71	32.4	1	n/a	n/a	n/a	n/a	n/a
1116.491736	2.7	forage	0	1.393	n/a	n/a	n/a	5.318096005	68.33333333	20	42.53239274	1
1126.386554	2.7	forage	0	2.225	n/a	n/a	n/a	23.39842731	75	5	26.38622303	1
1138.185248	2.7	forage	0	2.904	n/a	n/a	n/a	-15.37995238	61.66666667	20	58.67385946	0
1147.245718	2.7	engage	0	3.693	68.2	20.8	1	n/a	n/a	n/a	n/a	n/a
1157.585062	2.7	forage	0	1.839	n/a	n/a	n/a	-22.73654243	58.33333333	10	61.68764147	0
1165.327989	2.7	engage	0	1.156	102.6	38.1	1	n/a	n/a	n/a	n/a	n/a
1178.7713	2.7	forage	0	0.81	n/a	n/a	n/a	-17.51802056	66.66666667	20	66.17179719	0
1185.379124	2.7	engage	0	1.498	42.9	71.5	0	n/a	n/a	n/a	n/a	n/a
1199.020414	2.7	forage	0	0.865	n/a	n/a	n/a	-0.934067703	80	10	54.31253458	0
1204.992157	2.7	engage	0	0.787	25.95	53.5	1	n/a	n/a	n/a	n/a	n/a
1213.848024	2.7	forage	0	0.769	n/a	n/a	n/a	-25.56641014	68.33333333	20	71.4723354	0
1221.757737	2.7	engage	0	1.541	48.75	26.1	1	n/a	n/a	n/a	n/a	n/a
1231.750268	2.7	forage	0	0.902	n/a	n/a	n/a	-5.189566253	81.66666667	10	60.5	0
1239.623349	2.7	engage	0	3.211	9.4	31.9	0	n/a	n/a	n/a	n/a	n/a
1250.230515	2.7	forage	0	1.331	n/a	n/a	n/a	-13.85122479	60	20	55.69963785	0
1257.138881	2.7	engage	0	4.085	64.4	85.25	0	n/a	n/a	n/a	n/a	n/a
1270.277767	2.7	forage	0	1.555	n/a	n/a	n/a	8.98529752	95	5	50.62677934	0
1278.870956	2.7	engage	0	1.733	71.5	25.8	1	n/a	n/a	n/a	n/a	n/a
1287.95898	2.7	forage	0	1.395	n/a	n/a	n/a	33.28171789	78.33333333	5	20.30222323	1
1298.592654	2.7	forage	0	2.784	n/a	n/a	n/a	-20.82838556	66.66666667	20	66	0
1304.635985	2.7	engage	0	1.102	41.4	6	1	n/a	n/a	n/a	n/a	n/a
1313.298135	2.7	forage	0	2.045	n/a	n/a	n/a	-23.45325856	63.33333333	20	66.37264222	0
1322.152531	2.7	engage	0	1.106	89.05	59.85	1	n/a	n/a	n/a	n/a	n/a
1332.393975	2.7	forage	0	0.906	n/a	n/a	n/a	-10.08885703	73.33333333	5	58.14020925	0
1341.000418	2.7	engage	0	1.972	37	28.6	1	n/a	n/a	n/a	n/a	n/a
1354.424533	2.7	forage	0	1.012	n/a	n/a	n/a	4.369550492	90	10	55	0
1360.032963	2.7	engage	0	2.213	16.1	69	0	n/a	n/a	n/a	n/a	n/a
1369.559301	2.7	forage	0	0.952	n/a	n/a	n/a	-17.26660463	75	5	68.93051154	0
1377.231532	2.7	engage	0	5.515	37.75	34.45	0	n/a	n/a	n/a	n/a	n/a
1392.888448	2.7	forage	0	1.017	n/a	n/a	n/a	-18.83380447	61.66666667	10	61.91947085	0
1402.613314	2.7	engage	0	0.95	45.5	103.2	0	n/a	n/a	n/a	n/a	n/a
1410.926313	2.7	forage	0	1.265	n/a	n/a	n/a	-6.228833224	71.66666667	10	55.55799507	0
1417.895676	2.7	engage	0	0.763	84.15	14.35	1	n/a	n/a	n/a	n/a	n/a
1427.48529	2.7	forage	0	1.262	n/a	n/a	n/a	31.54174337	76.66666667	5	20.30581963	1
1438.32071	2.7	forage	0	2.877	n/a	n/a	n/a	13.11995708	66.66666667	10	36.3604195	1
1449.755842	2.7	forage	0	1.299	n/a	n/a	n/a	-29.12387539	60	10	70.45427795	0
1455.510057	2.7	engage	0	4.444	70.85	35.6	1	n/a	n/a	n/a	n/a	n/a
1469.54813	2.7	forage	0	0.853	n/a	n/a	n/a	-16.21337626	75	5	66	0
1476.158875	2.7	engage	0	2.605	51	13.4	1	n/a	n/a	n/a	n/a	n/a
1487.165194	2.7	forage	0	0.973	n/a	n/a	n/a	-4.802649095	71.66666667	10	56.09579498	0
1494.774399	2.7	engage	0	0.59	50.4	95.7	0	n/a	n/a	n/a	n/a	n/a
1504.719585	2.7	forage	0	1.465	n/a	n/a	n/a	-17.06365709	75	20	66	0
1513.523183	2.7	engage	0	1.23	4.4	32.4	0	n/a	n/a	n/a	n/a	n/a