onset	duration	trial_type	ExcludeBlock	RT	ExpValueLeft	ExpValueRight	Choice_isLeft	SearchEvidence	SearchValue	SearchCosts	OfferValue	Choice_isForage
6.005703372	2.7	forage	0	4.173	n/a	n/a	n/a	1.80303137	80	20	55.55799507	0
15.14502099	2.7	engage	0	4.011	92.4	61.6	0	n/a	n/a	n/a	n/a	n/a
26.20280969	2.7	forage	0	0.895	n/a	n/a	n/a	-20.26496823	68.33333333	5	66.17179719	0
32.01216043	2.7	engage	0	1.087	41.6	83.5	0	n/a	n/a	n/a	n/a	n/a
43.07207645	2.7	forage	0	1.496	n/a	n/a	n/a	8.0869356	88.33333333	20	51.20220311	0
48.98100194	2.7	engage	0	1.779	54.4	69	0	n/a	n/a	n/a	n/a	n/a
60.01816768	2.7	forage	0	0.889	n/a	n/a	n/a	-15.06656774	83.33333333	5	70.4617474	0
65.57525223	2.7	engage	0	0.826	20.2	115.05	0	n/a	n/a	n/a	n/a	n/a
76.26904418	2.7	forage	0	0.825	n/a	n/a	n/a	-23.42657143	75	10	71.5	0
83.12836245	2.7	engage	0	0.654	70.2	6	1	n/a	n/a	n/a	n/a	n/a
94.33087075	2.7	forage	0	3.606	n/a	n/a	n/a	-21.223473	73.33333333	5	71.4723354	0
102.8062982	2.7	engage	0	1.021	18.6	94.9	0	n/a	n/a	n/a	n/a	n/a
113.0670366	2.7	forage	0	1.634	n/a	n/a	n/a	-24.51065506	56.66666667	20	60.5	0
119.7385585	2.7	engage	0	0.847	9.8	97.9	0	n/a	n/a	n/a	n/a	n/a
130.7299861	2.7	forage	0	1.097	n/a	n/a	n/a	-15.15446741	70	10	63.0313113	0
140.3373263	2.7	engage	0	2.878	42.6	36	0	n/a	n/a	n/a	n/a	n/a
152.9615516	2.7	forage	0	2.943	n/a	n/a	n/a	-1.339501702	86.66666667	10	57.19684624	0
159.9694106	2.7	engage	0	1.789	60.5	37	1	n/a	n/a	n/a	n/a	n/a
168.9594177	2.7	forage	0	4.322	n/a	n/a	n/a	33.85896752	98.33333333	5	25.60110155	1
179.9946427	2.7	forage	0	1.058	n/a	n/a	n/a	-14.33893332	75	20	63.6050752	0
188.8010001	2.7	engage	0	0.626	102.6	74.8	1	n/a	n/a	n/a	n/a	n/a
199.8941714	2.7	forage	0	2.998	n/a	n/a	n/a	26.22846101	95	5	35.40488406	1
209.7063576	2.7	forage	0	1.902	n/a	n/a	n/a	-2.852183827	93.33333333	5	60.5	0
215.6326887	2.7	engage	0	2.69	4.4	92.4	0	n/a	n/a	n/a	n/a	n/a
228.0771808	2.7	forage	0	2.234	n/a	n/a	n/a	19.02474557	85	20	32.28846637	1
237.6883469	2.7	forage	0	1.137	n/a	n/a	n/a	-21.90127425	61.66666667	10	61.91061818	0
244.4641917	2.7	engage	0	1.409	54	31	1	n/a	n/a	n/a	n/a	n/a
254.2090002	2.7	forage	0	1.982	n/a	n/a	n/a	-13.17412437	76.66666667	5	67.47590664	0
261.7631754	2.7	engage	0	2.965	24	61.75	0	n/a	n/a	n/a	n/a	n/a
273.0380138	2.7	forage	0	2.766	n/a	n/a	n/a	-7.134037523	65	10	52.79568432	0
279.7620084	2.7	engage	0	1.258	9.4	89	0	n/a	n/a	n/a	n/a	n/a
291.9544463	2.7	forage	0	5.273	n/a	n/a	n/a	-5.475710477	68.33333333	20	56.53953523	0
303.2439055	2.7	engage	0	1.168	78.1	38.7	1	n/a	n/a	n/a	n/a	n/a
313.2363864	2.7	forage	0	1.742	n/a	n/a	n/a	24.71172141	68.33333333	10	20.30581963	1
322.5547561	2.7	forage	0	0.97	n/a	n/a	n/a	-11.01348188	51.66666667	5	47.22541623	0
330.2256737	2.7	engage	0	3.193	26.1	24.4	1	n/a	n/a	n/a	n/a	n/a
341.7677467	2.7	forage	0	2.204	n/a	n/a	n/a	-20.82648592	70	5	70.45427795	0
349.3910981	2.7	engage	0	0.626	105.95	9.6	1	n/a	n/a	n/a	n/a	n/a
359.8815535	2.7	forage	0	0.937	n/a	n/a	n/a	2.325136227	66.66666667	10	45.87704341	0
368.606627	2.7	engage	0	2.14	40.05	31.15	1	n/a	n/a	n/a	n/a	n/a
382.0474806	2.7	forage	0	0.986	n/a	n/a	n/a	-21.8247724	60	20	66.37264222	0
387.7221362	2.7	engage	0	0.671	104	39.55	1	n/a	n/a	n/a	n/a	n/a
398.680756	2.7	forage	0	1.338	n/a	n/a	n/a	-3.065145952	76.66666667	5	55.68967859	0
405.3881403	2.7	engage	0	1.047	52.8	68	0	n/a	n/a	n/a	n/a	n/a
416.5327567	2.7	forage	0	1.475	n/a	n/a	n/a	-1.414638767	78.33333333	5	52.67451335	0
423.2913736	2.7	engage	0	0.812	77.5	58.95	1	n/a	n/a	n/a	n/a	n/a
438.2299937	2.7	forage	0	1.838	n/a	n/a	n/a	1.152027899	78.33333333	10	49.5	0
444.7854639	2.7	engage	0	1.592	34.2	17.9	1	n/a	n/a	n/a	n/a	n/a
456.0300594	2.7	forage	0	1.282	n/a	n/a	n/a	13.50801771	90	10	41.12509431	1
464.1942806	2.7	forage	0	2.346	n/a	n/a	n/a	1.625922573	85	10	51.40636789	0
474.1503661	2.7	engage	0	1.136	50.5	23.75	1	n/a	n/a	n/a	n/a	n/a
484.1585598	2.7	forage	0	1.117	n/a	n/a	n/a	-24.49189846	60	20	65.85061114	0
492.0657811	2.7	engage	0	1.647	24.45	36	1	n/a	n/a	n/a	n/a	n/a
502.3114553	2.7	forage	0	2.248	n/a	n/a	n/a	19.22393072	90	10	40.60444646	1
513.5282695	2.7	forage	0	0.969	n/a	n/a	n/a	-18.56062572	73.33333333	10	67.30604597	0
520.2472767	2.7	engage	0	1.387	53.95	29.15	1	n/a	n/a	n/a	n/a	n/a
528.3057364	2.7	forage	0	0.961	n/a	n/a	n/a	-27.64120014	68.33333333	20	71.5	0
534.1150107	2.7	engage	0	1.513	84.5	10.6	1	n/a	n/a	n/a	n/a	n/a
544.4034569	2.7	forage	0	0.871	n/a	n/a	n/a	-13.18437872	81.66666667	10	66	0
550.2627801	2.7	engage	0	1.214	8.4	51	0	n/a	n/a	n/a	n/a	n/a
558.5046676	2.7	forage	0	0.981	n/a	n/a	n/a	0.609856982	78.33333333	5	52.6783864	0
566.4111596	2.7	engage	0	3.268	68.4	76	0	n/a	n/a	n/a	n/a	n/a
579.3923465	2.7	forage	0	2.184	n/a	n/a	n/a	-25.29586875	70	5	71.5	0
587.2599104	2.7	engage	0	0.888	54.6	5.6	1	n/a	n/a	n/a	n/a	n/a
596.6681491	2.7	forage	0	2.76	n/a	n/a	n/a	2.003452207	85	10	55	0
602.5922767	2.7	engage	0	1.367	21	14.9	1	n/a	n/a	n/a	n/a	n/a
613.701225	2.7	forage	0	1.221	n/a	n/a	n/a	14.63892829	81.66666667	10	40.60444646	1
622.5653007	2.7	forage	0	0.973	n/a	n/a	n/a	-10.47931526	70	5	58.13854937	0
631.2237911	2.7	engage	0	3.098	29.15	23	1	n/a	n/a	n/a	n/a	n/a
645.1675149	2.7	forage	0	1.551	n/a	n/a	n/a	25.75816273	95	5	32.30174539	1
654.3837559	2.7	forage	0	1.004	n/a	n/a	n/a	-16.9399041	78.33333333	20	68.91723253	0
662.3389778	2.7	engage	0	3.472	49.4	35.25	1	n/a	n/a	n/a	n/a	n/a
674.5667721	2.7	forage	0	0.839	n/a	n/a	n/a	-14.95933974	66.66666667	10	63.04099391	0
684.320579	2.7	engage	0	1.947	40.5	82.8	0	n/a	n/a	n/a	n/a	n/a
695.513013	2.7	forage	0	0.787	n/a	n/a	n/a	-24.1004812	63.33333333	5	67.47590664	0
701.2362323	2.7	engage	0	5.319	46.5	53.3	1	n/a	n/a	n/a	n/a	n/a
714.8616661	2.7	forage	0	1.549	n/a	n/a	n/a	3.295647436	88.33333333	20	54.30478849	0
721.484998	2.7	engage	0	2.765	36	23.1	1	n/a	n/a	n/a	n/a	n/a
732.6471852	2.7	forage	0	0.863	n/a	n/a	n/a	-10.68646782	81.66666667	5	65.73607967	0
739.6008272	2.7	engage	0	1.333	103.35	28	1	n/a	n/a	n/a	n/a	n/a
749.509285	2.7	forage	0	1.574	n/a	n/a	n/a	-13.6231209	78.33333333	10	66.37264222	0
756.1661454	2.7	engage	0	0.877	72.8	26.6	1	n/a	n/a	n/a	n/a	n/a
767.4571172	2.7	forage	0	2.128	n/a	n/a	n/a	8.956378787	61.66666667	20	35.55703938	1
778.4560679	2.7	forage	0	2.04	n/a	n/a	n/a	-30.01150345	56.66666667	20	66	0
786.1644564	2.7	engage	0	1.63	12.9	58.2	0	n/a	n/a	n/a	n/a	n/a
798.2126898	2.7	forage	0	0.949	n/a	n/a	n/a	-10.29462636	71.66666667	5	58.68741512	0
803.9298781	2.7	engage	0	0.943	14.4	71.5	0	n/a	n/a	n/a	n/a	n/a
816.2239234	2.7	forage	0	0.959	n/a	n/a	n/a	17.5491709	71.66666667	20	30.84382073	1
825.569892	2.7	forage	0	0.807	n/a	n/a	n/a	-26.46180273	51.66666667	20	60.91745888	0
834.3780228	2.7	engage	0	1.127	63.9	58.2	1	n/a	n/a	n/a	n/a	n/a
843.7197652	2.7	forage	0	2.171	n/a	n/a	n/a	0.419598276	66.66666667	10	45.42915346	0
849.6775833	2.7	engage	0	1.862	34.65	12.3	1	n/a	n/a	n/a	n/a	n/a
858.1368534	2.7	forage	0	1.387	n/a	n/a	n/a	4.613330986	81.66666667	10	51.20220311	0
866.7594245	2.7	engage	0	2.738	50.8	42.5	1	n/a	n/a	n/a	n/a	n/a
878.3548687	2.7	forage	0	0.829	n/a	n/a	n/a	-20.2080898	51.66666667	10	55.69963785	0
886.1091048	2.7	engage	0	0.933	67.6	28.05	1	n/a	n/a	n/a	n/a	n/a
894.8660125	2.7	forage	0	3.642	n/a	n/a	n/a	10.2945157	75	20	40.60444646	0
901.4239108	2.7	engage	0	1.289	32.4	27.3	1	n/a	n/a	n/a	n/a	n/a
911.6846911	2.7	forage	0	0.706	n/a	n/a	n/a	-16.63408112	80	10	70.4617474	0
918.3895596	2.7	engage	0	0.654	10.6	117	0	n/a	n/a	n/a	n/a	n/a
930.7986129	2.7	forage	0	1.807	n/a	n/a	n/a	25.84028972	66.66666667	5	15.14305115	1
939.4178647	2.7	forage	0	1.502	n/a	n/a	n/a	-3.165789783	55	20	41.12509431	0
945.3379001	2.7	engage	0	1.049	42.4	15.6	1	n/a	n/a	n/a	n/a	n/a
954.5334957	2.7	forage	0	0.762	n/a	n/a	n/a	-0.331772379	61.66666667	5	45.81396811	0
962.4375014	2.7	engage	0	0.593	76.5	28	1	n/a	n/a	n/a	n/a	n/a
973.0685112	2.7	forage	0	0.836	n/a	n/a	n/a	-4.126895025	73.33333333	5	54.30478849	0
978.9358945	2.7	engage	0	0.707	82	18.6	1	n/a	n/a	n/a	n/a	n/a
988.8789142	2.7	forage	0	0.719	n/a	n/a	n/a	-14.38481968	61.66666667	20	58.13854937	0
995.801445	2.7	engage	0	1.088	51.15	83	0	n/a	n/a	n/a	n/a	n/a
1004.012919	2.7	forage	0	2.362	n/a	n/a	n/a	15.74040374	75	5	40.60444646	0
1014.968472	2.7	engage	0	1.268	36.8	24.9	1	n/a	n/a	n/a	n/a	n/a
1025.228968	2.7	forage	0	0.872	n/a	n/a	n/a	-25.00411783	60	10	65.66608822	0
1033.032609	2.7	engage	0	0.987	20.25	92.3	0	n/a	n/a	n/a	n/a	n/a
1043.642157	2.7	forage	0	2.417	n/a	n/a	n/a	18.86073135	83.33333333	10	35.39824456	1
1053.352822	2.7	forage	0	1.032	n/a	n/a	n/a	-14.5987224	70	20	60.57220462	0
1059.297604	2.7	engage	0	0.894	103.2	49.2	1	n/a	n/a	n/a	n/a	n/a
1073.842619	2.7	forage	0	3.637	n/a	n/a	n/a	16.22274533	81.66666667	10	40.60444646	0
1082.39618	2.7	engage	0	1.143	24.8	43.8	0	n/a	n/a	n/a	n/a	n/a
1090.438173	2.7	forage	0	3.196	n/a	n/a	n/a	22.20658082	76.66666667	5	30.88199789	1
1102.805277	2.7	forage	0	0.918	n/a	n/a	n/a	-26.59604983	53.33333333	20	63.6050752	0
1110.42784	2.7	engage	0	1.128	46.8	31.9	1	n/a	n/a	n/a	n/a	n/a
1123.274168	2.7	forage	0	0.981	n/a	n/a	n/a	-7.093204567	60	5	48.45261808	0
1131.093174	2.7	engage	0	0.946	9	56.25	0	n/a	n/a	n/a	n/a	n/a
1143.104913	2.7	forage	0	2.19	n/a	n/a	n/a	20.95093976	83.33333333	10	35.55703938	0
1149.708781	2.7	engage	0	0.759	39.2	16.6	1	n/a	n/a	n/a	n/a	n/a
1159.150906	2.7	forage	0	0.859	n/a	n/a	n/a	-20.41489194	71.66666667	10	71.4723354	0
1169.062143	2.7	engage	0	1.217	7.2	65.65	0	n/a	n/a	n/a	n/a	n/a
1177.354762	2.7	forage	0	0.957	n/a	n/a	n/a	-0.140646849	78.33333333	10	55.55799507	0
1184.156664	2.7	engage	0	0.622	81.4	25.9	1	n/a	n/a	n/a	n/a	n/a
1194.068068	2.7	forage	0	1.018	n/a	n/a	n/a	1.815738645	73.33333333	20	51.40636789	0
1199.68902	2.7	engage	0	1.01	82.5	39.25	1	n/a	n/a	n/a	n/a	n/a
1210.781751	2.7	forage	0	3.472	n/a	n/a	n/a	20.94656875	75	10	35.39824456	1
1220.063214	2.7	forage	0	2.227	n/a	n/a	n/a	37.19601965	85	20	20.58799859	1
1230.062197	2.7	forage	0	6.803	n/a	n/a	n/a	32.59596767	81.66666667	5	25.32334893	1
1243.628607	2.7	forage	0	1.19	n/a	n/a	n/a	-6.663241286	70	5	58.67385946	0
1252.385802	2.7	engage	0	0.929	79.2	23.8	1	n/a	n/a	n/a	n/a	n/a
1265.527736	2.7	forage	0	0.947	n/a	n/a	n/a	-7.101485505	68.33333333	20	56.09579498	0
1273.134475	2.7	engage	0	1.047	30.25	40.2	0	n/a	n/a	n/a	n/a	n/a
1283.245588	2.7	forage	0	0.936	n/a	n/a	n/a	-9.469188337	73.33333333	10	60.86129973	0
1292.066649	2.7	engage	0	1.271	63.6	26.95	1	n/a	n/a	n/a	n/a	n/a
1302.329763	2.7	forage	0	1.935	n/a	n/a	n/a	10.48693225	66.66666667	10	36.35848297	1
1312.195531	2.7	forage	0	1.005	n/a	n/a	n/a	-23.32729239	60	5	63.04099391	0
1319.898271	2.7	engage	0	0.768	34	29.4	1	n/a	n/a	n/a	n/a	n/a
1329.25978	2.7	forage	0	1.009	n/a	n/a	n/a	-7.698506111	83.33333333	20	58.67385946	0
1336.068189	2.7	engage	0	0.621	92.95	16.8	1	n/a	n/a	n/a	n/a	n/a
1346.572603	2.7	forage	0	1	n/a	n/a	n/a	-17.00124575	75	20	65.85061114	0
1354.146197	2.7	engage	0	2.001	10.8	30	0	n/a	n/a	n/a	n/a	n/a
1367.004452	2.7	forage	0	1.31	n/a	n/a	n/a	34.47500293	85	20	15.14858408	1
1377.854156	2.7	forage	0	0.901	n/a	n/a	n/a	-1.199149942	65	5	47.22541623	0
1383.727711	2.7	engage	0	1.811	68.8	58.5	1	n/a	n/a	n/a	n/a	n/a
1396.937634	2.7	forage	0	0.828	n/a	n/a	n/a	-16.12534748	73.33333333	20	66.37596197	0
1405.545292	2.7	engage	0	2.173	49.35	63.05	0	n/a	n/a	n/a	n/a	n/a