onset	duration	trial_type	ExcludeBlock	RT	ExpValueLeft	ExpValueRight	Choice_isLeft	SearchEvidence	SearchValue	SearchCosts	OfferValue	Choice_isForage
6.005692135	2.7	forage	0	5.01	n/a	n/a	n/a	-4.460050635	58.33333333	5	47.22541623	0
15.27789674	2.7	engage	0	0.947	31.5	64.8	0	n/a	n/a	n/a	n/a	n/a
26.11879663	2.7	forage	0	3.96	n/a	n/a	n/a	28.23342555	85	10	26.38622303	1
37.61522202	2.7	forage	0	6.12	n/a	n/a	n/a	-14.37154067	65	20	60.86129973	0
48.8425324	2.7	engage	0	1.749	91.8	45.85	1	n/a	n/a	n/a	n/a	n/a
60.38052637	2.7	forage	0	4.959	n/a	n/a	n/a	10.7792549	63.33333333	5	35.56450883	0
69.491322	2.7	engage	0	2.818	17.8	18.9	1	n/a	n/a	n/a	n/a	n/a
80.71240018	2.7	forage	0	7.724	n/a	n/a	n/a	-7.959881294	78.33333333	5	61.68764147	0
91.53994052	2.7	engage	0	2.365	74.4	37.8	1	n/a	n/a	n/a	n/a	n/a
105.1950196	2.7	forage	0	11.681	n/a	n/a	n/a	-12.49901581	85	20	65.83816206	0
121.0213965	2.7	engage	0	1.09	102.6	9.3	1	n/a	n/a	n/a	n/a	n/a
131.3622424	2.7	forage	0	9.347	n/a	n/a	n/a	10.48488507	71.66666667	20	41.78074544	0
144.8533268	2.7	engage	0	1.401	36.8	52.5	0	n/a	n/a	n/a	n/a	n/a
153.9584507	2.7	forage	0	9.208	n/a	n/a	n/a	-5.859602971	71.66666667	5	55	1
169.855524	2.7	forage	0	4.043	n/a	n/a	n/a	-10.07209228	61.66666667	20	55.55799507	0
178.0512709	2.7	engage	0	1.177	75.9	19.6	1	n/a	n/a	n/a	n/a	n/a
191.4409448	2.7	forage	0	11.127	n/a	n/a	n/a	-4.119739114	66.66666667	20	52.77244605	0
207.5661263	2.7	engage	0	1.633	29	20	0	n/a	n/a	n/a	n/a	n/a
218.4539208	2.7	forage	0	9.096	n/a	n/a	n/a	16.15806549	76.66666667	5	40.60444646	1
233.2355195	2.7	forage	0	4.335	n/a	n/a	n/a	-6.212068474	76.66666667	20	60.11712188	0
244.8304666	2.7	engage	0	1.216	9.9	51.7	0	n/a	n/a	n/a	n/a	n/a
255.2206198	2.7	forage	0	2.147	n/a	n/a	n/a	-14.63066579	71.66666667	5	63.6050752	0
260.8128728	2.7	engage	0	0.96	99.6	24.75	1	n/a	n/a	n/a	n/a	n/a
269.9031275	2.7	forage	0	9.777	n/a	n/a	n/a	32.91899804	83.33333333	10	20.56254716	1
285.0153384	2.7	forage	0	1.822	n/a	n/a	n/a	-10.66511074	61.66666667	5	55.68967859	0
292.760931	2.7	engage	0	1.63	77	48.4	1	n/a	n/a	n/a	n/a	n/a
305.9008383	2.7	forage	0	2.075	n/a	n/a	n/a	-12.38643931	76.66666667	5	61.91947085	0
312.5965769	2.7	engage	0	1.12	77	34.8	1	n/a	n/a	n/a	n/a	n/a
321.4513348	2.7	forage	0	4.693	n/a	n/a	n/a	-19.44980299	65	10	65.66608822	0
329.3586531	2.7	engage	0	1.069	48.15	74.75	0	n/a	n/a	n/a	n/a	n/a
339.7694674	2.7	forage	0	2.089	n/a	n/a	n/a	13.48916889	91.66666667	20	47.22541623	0
347.4741741	2.7	engage	0	2.452	72.45	56.8	1	n/a	n/a	n/a	n/a	n/a
361.9288234	2.7	forage	0	10.989	n/a	n/a	n/a	-21.44294553	73.33333333	5	71.4723354	0
377.9223088	2.7	engage	0	1.061	9.45	49.4	0	n/a	n/a	n/a	n/a	n/a
392.8106463	2.7	forage	0	7.644	n/a	n/a	n/a	-15.76345757	61.66666667	10	56.09579498	0
404.6540431	2.7	engage	0	0.855	78.1	16.2	1	n/a	n/a	n/a	n/a	n/a
417.495863	2.7	forage	0	1.912	n/a	n/a	n/a	-6.067954328	76.66666667	5	60.5943363	0
423.4529175	2.7	engage	0	1.448	41.6	48.6	1	n/a	n/a	n/a	n/a	n/a
435.6412123	2.7	forage	0	3.317	n/a	n/a	n/a	-10.9470315	78.33333333	20	61.76399577	0
445.0515415	2.7	engage	0	0.644	27	107.4	0	n/a	n/a	n/a	n/a	n/a
455.5925995	2.7	forage	0	7.119	n/a	n/a	n/a	-19.8634626	73.33333333	10	70.4617474	0
465.9835062	2.7	engage	0	5.006	31.8	35.75	1	n/a	n/a	n/a	n/a	n/a
479.8891185	2.7	forage	0	3.621	n/a	n/a	n/a	33.66631122	93.33333333	10	26.38622303	1
490.6530003	2.7	forage	0	4.136	n/a	n/a	n/a	-24.09105679	63.33333333	20	69.07741059	0
499.0482426	2.7	engage	0	1.232	99.45	43.2	1	n/a	n/a	n/a	n/a	n/a
508.0384716	2.7	forage	0	9.249	n/a	n/a	n/a	-18.46960917	66.66666667	10	67.46816056	0
523.4300387	2.7	engage	0	1.842	43.55	33	0	n/a	n/a	n/a	n/a	n/a
533.5186648	2.7	forage	0	14.798	n/a	n/a	n/a	14.99836527	73.33333333	20	35.39824456	0
552.5782387	2.7	engage	0	1.965	27.3	30.75	0	n/a	n/a	n/a	n/a	n/a
563.3257088	2.7	forage	0	2.04	n/a	n/a	n/a	39.33248328	101.6666667	5	20.30222323	1
574.7327449	2.7	forage	0	4.169	n/a	n/a	n/a	6.564202002	83.33333333	20	51.20220311	0
585.8595078	2.7	engage	0	0.973	16	57	0	n/a	n/a	n/a	n/a	n/a
593.8005853	2.7	forage	0	11.191	n/a	n/a	n/a	3.796081686	78.33333333	5	49.5	1
610.5294509	2.7	forage	0	10.723	n/a	n/a	n/a	-9.327674664	73.33333333	5	60.11712188	0
624.5071346	2.7	engage	0	1.716	21.75	90.2	0	n/a	n/a	n/a	n/a	n/a
633.4947423	2.7	forage	0	10.167	n/a	n/a	n/a	12.23791727	76.66666667	20	40.42545647	0
648.5557177	2.7	engage	0	2.532	66.4	30.5	1	n/a	n/a	n/a	n/a	n/a
660.5277997	2.7	forage	0	2.077	n/a	n/a	n/a	26.33030364	83.33333333	5	25.31338967	1
670.9640596	2.7	forage	0	4.387	n/a	n/a	n/a	-5.788855356	66.66666667	5	51.20220311	0
680.6203769	2.7	engage	0	2.484	67.6	48.5	1	n/a	n/a	n/a	n/a	n/a
693.8969687	2.7	forage	0	5.601	n/a	n/a	n/a	-16.05539292	81.66666667	10	67.30604597	0
703.618974	2.7	engage	0	1.598	102.05	51.15	1	n/a	n/a	n/a	n/a	n/a
713.8613736	2.7	forage	0	9.187	n/a	n/a	n/a	-3.386756199	66.66666667	5	51.46999648	0
729.1674231	2.7	engage	0	1.353	23.75	62.5	0	n/a	n/a	n/a	n/a	n/a
743.9730524	2.7	forage	0	5.265	n/a	n/a	n/a	-0.961898295	85	20	57.19684624	0
753.1325972	2.7	engage	0	1.258	57.75	19.5	1	n/a	n/a	n/a	n/a	n/a
763.8698403	2.7	forage	0	4.599	n/a	n/a	n/a	9.257203695	83.33333333	10	43.90040742	0
771.5148075	2.7	engage	0	4.155	13.9	51.2	0	n/a	n/a	n/a	n/a	n/a
785.169442	2.7	forage	0	11.099	n/a	n/a	n/a	-2.726826283	76.66666667	20	58.68741512	0
801.1796938	2.7	engage	0	4.477	16.2	26.95	1	n/a	n/a	n/a	n/a	n/a
813.0544987	2.7	forage	0	4.712	n/a	n/a	n/a	24.02665359	70	5	25.60110155	1
823.7164494	2.7	forage	0	12.775	n/a	n/a	n/a	-10.0399829	63.33333333	20	54.31253458	0
842.5437673	2.7	engage	0	1.005	9.9	80.5	0	n/a	n/a	n/a	n/a	n/a
851.6031423	2.7	forage	0	5.406	n/a	n/a	n/a	-9.644120852	63.33333333	10	55.69963785	0
860.8760222	2.7	engage	0	1.45	29.2	81.95	0	n/a	n/a	n/a	n/a	n/a
875.3659423	2.7	forage	0	4.481	n/a	n/a	n/a	-12.75513472	81.66666667	20	65.74714552	0
883.0412951	2.7	engage	0	1.382	26.4	54.6	0	n/a	n/a	n/a	n/a	n/a
893.0339829	2.7	forage	0	5.421	n/a	n/a	n/a	0.863854937	73.33333333	20	50.53410291	0
902.7234305	2.7	engage	0	3.723	39.2	52.5	1	n/a	n/a	n/a	n/a	n/a
912.7052089	2.7	forage	0	9.166	n/a	n/a	n/a	38.80678202	88.33333333	10	20.30222323	1
927.4318144	2.7	forage	0	3.481	n/a	n/a	n/a	-4.198159046	68.33333333	20	55.69963785	0
934.871431	2.7	engage	0	2.058	66.8	88	0	n/a	n/a	n/a	n/a	n/a
945.3758004	2.7	forage	0	14.619	n/a	n/a	n/a	-15.70488238	65	20	55	0
964.0029564	2.7	engage	0	0.804	5.5	56.5	0	n/a	n/a	n/a	n/a	n/a
971.6134476	2.7	forage	0	2.315	n/a	n/a	n/a	-21.07308821	70	10	67.3110256	0
977.2188629	2.7	engage	0	0.989	26.4	78	0	n/a	n/a	n/a	n/a	n/a
988.4593164	2.7	forage	0	2.181	n/a	n/a	n/a	-19.35091126	68.33333333	5	65.65944872	0
997.0510153	2.7	engage	0	1.321	55.9	65.25	0	n/a	n/a	n/a	n/a	n/a
1008.257399	2.7	forage	0	12.445	n/a	n/a	n/a	-26.68690039	61.66666667	20	70.4617474	0
1026.949116	2.7	engage	0	0.706	12.2	104.65	0	n/a	n/a	n/a	n/a	n/a
1036.137777	2.7	forage	0	2.275	n/a	n/a	n/a	-10.24117834	76.66666667	5	63.6050752	0
1043.73537	2.7	engage	0	2.174	61.6	61.2	1	n/a	n/a	n/a	n/a	n/a
1056.208087	2.7	forage	0	12.267	n/a	n/a	n/a	-27.89975353	65	10	71.5	0
1071.596359	2.7	engage	0	0.802	11.8	112.45	0	n/a	n/a	n/a	n/a	n/a
1083.154349	2.7	forage	0	9.572	n/a	n/a	n/a	-18.96559865	81.66666667	20	71.5	1
1100.383588	2.7	forage	0	8.524	n/a	n/a	n/a	11.73366531	85	5	46.92580856	1
1114.35084	2.7	forage	0	4.639	n/a	n/a	n/a	-8.276069279	78.33333333	20	63.0313113	0
1122.843296	2.7	engage	0	1.413	48	43.5	0	n/a	n/a	n/a	n/a	n/a
1136.632905	2.7	forage	0	7.293	n/a	n/a	n/a	5.866887984	70	5	42.53654243	1
1151.871579	2.7	forage	0	4.444	n/a	n/a	n/a	-16.80303808	66.66666667	10	60.5	0
1160.324308	2.7	engage	0	0.743	4.9	60.5	0	n/a	n/a	n/a	n/a	n/a
1172.467232	2.7	forage	0	9.293	n/a	n/a	n/a	-11.57994232	63.33333333	5	55.56574116	0
1184.872763	2.7	engage	0	1.1	36.4	33	1	n/a	n/a	n/a	n/a	n/a
1193.186853	2.7	forage	0	8.242	n/a	n/a	n/a	-7.9741009	73.33333333	10	55	0
1207.638017	2.7	engage	0	0.911	4.6	70.5	0	n/a	n/a	n/a	n/a	n/a
1218.977885	2.7	forage	0	12.892	n/a	n/a	n/a	34.72538605	91.66666667	5	20.58799859	1
1241.909684	2.7	forage	0	7.809	n/a	n/a	n/a	-25.9223245	61.66666667	20	67.30604597	0
1254.618518	2.7	engage	0	1.107	65	93.5	0	n/a	n/a	n/a	n/a	n/a
1263.957738	2.7	forage	0	10.872	n/a	n/a	n/a	35.50997267	81.66666667	20	15.14858408	1
1283.327228	2.7	forage	0	1.874	n/a	n/a	n/a	5.887949969	65	20	41.7829586	0
1292.132855	2.7	engage	0	1.073	43.4	72	0	n/a	n/a	n/a	n/a	n/a
1302.975443	2.7	forage	0	18.632	n/a	n/a	n/a	12.97615646	66.66666667	20	35.55703938	0
1328.530659	2.7	engage	0	1.245	31.85	11.2	1	n/a	n/a	n/a	n/a	n/a
1337.870051	2.7	forage	0	6.295	n/a	n/a	n/a	6.346168033	81.66666667	10	43.89210804	1
1349.906237	2.7	forage	0	3.07	n/a	n/a	n/a	-17.63201717	70	10	63.04099391	0
1357.195578	2.7	engage	0	0.821	23.75	84	0	n/a	n/a	n/a	n/a	n/a
1366.351561	2.7	forage	0	22.446	n/a	n/a	n/a	30.9524873	78.33333333	20	20.56254716	1
1395.550107	2.7	forage	0	2.656	n/a	n/a	n/a	-6.248345992	60	20	50.53410291	0
1401.292868	2.7	engage	0	1.154	17.5	41	0	n/a	n/a	n/a	n/a	n/a
1412.702542	2.7	forage	0	12.834	n/a	n/a	n/a	-18.88463357	76.66666667	5	70.4617474	0
1429.757707	2.7	engage	0	1.82	29.8	87.75	0	n/a	n/a	n/a	n/a	n/a
1441.081988	2.7	forage	0	10.862	n/a	n/a	n/a	-12.45084251	73.33333333	20	60.5	0
1455.006207	2.7	engage	0	1.453	17.2	46.2	0	n/a	n/a	n/a	n/a	n/a
1465.412481	2.7	forage	0	6.93	n/a	n/a	n/a	-7.911246919	63.33333333	5	52.79568432	0
1476.488163	2.7	engage	0	1.184	25.8	61	0	n/a	n/a	n/a	n/a	n/a
1488.627665	2.7	forage	0	7.219	n/a	n/a	n/a	14.1050752	76.66666667	5	40.42545647	1
1502.14554	2.7	forage	0	9.422	n/a	n/a	n/a	23.08825176	85	20	32.30174539	1
1517.929319	2.7	forage	0	4.746	n/a	n/a	n/a	-7.652140234	66.66666667	20	55.68967859	0
1528.685038	2.7	engage	0	1.256	75.9	30	1	n/a	n/a	n/a	n/a	n/a
1537.974601	2.7	forage	0	6.495	n/a	n/a	n/a	28.85606358	83.33333333	10	25.32334893	1
1551.50755	2.7	forage	0	2.676	n/a	n/a	n/a	23.97202522	80	5	30.29716815	1
1562.155283	2.7	forage	0	11.019	n/a	n/a	n/a	18.11459853	76.66666667	10	35.40488406	1
1582.176408	2.7	forage	0	5.513	n/a	n/a	n/a	11.51576044	76.66666667	10	41.17599718	0
1592.897798	2.7	engage	0	3.613	11.8	17.2	0	n/a	n/a	n/a	n/a	n/a
1604.604544	2.7	forage	0	3.529	n/a	n/a	n/a	35.17170833	81.66666667	5	20.30222323	1
1614.903339	2.7	forage	0	2.08	n/a	n/a	n/a	-1.657423336	65	20	50.52746341	0
1621.696001	2.7	engage	0	0.958	28	58.45	0	n/a	n/a	n/a	n/a	n/a
1629.334555	2.7	forage	0	6.88	n/a	n/a	n/a	1.970457556	65	10	41.12509431	0
1642.061399	2.7	engage	0	0.577	60	8.6	1	n/a	n/a	n/a	n/a	n/a
1655.454351	2.7	forage	0	8.148	n/a	n/a	n/a	16.50431568	83.33333333	10	40.43624566	1
1670.254912	2.7	forage	0	2.726	n/a	n/a	n/a	-14.83169525	68.33333333	5	61.91947085	0
1677.04261	2.7	engage	0	2.286	68.5	48.6	1	n/a	n/a	n/a	n/a	n/a
1685.683291	2.7	forage	0	6.533	n/a	n/a	n/a	31.56140369	86.66666667	10	26.39784216	1
1698.78112	2.7	forage	0	1.967	n/a	n/a	n/a	-4.497729826	68.33333333	10	55.56574116	0
1706.690747	2.7	engage	0	4.421	51.45	57.2	1	n/a	n/a	n/a	n/a	n/a
1718.36776	2.7	forage	0	4.425	n/a	n/a	n/a	3.661299733	83.33333333	10	49.5	1
1728.399776	2.7	forage	0	11.362	n/a	n/a	n/a	18.85868417	80	10	36.3604195	1
1745.810856	2.7	forage	0	1.409	n/a	n/a	n/a	-11.80395185	66.66666667	5	58.13854937	0
1753.358362	2.7	engage	0	0.814	37.4	55.5	0	n/a	n/a	n/a	n/a	n/a
1764.445848	2.7	forage	0	17.593	n/a	n/a	n/a	5.276691313	75	20	48.45261808	0
1786.002642	2.7	engage	0	1.346	26.4	47.7	1	n/a	n/a	n/a	n/a	n/a
1796.742172	2.7	forage	0	14.752	n/a	n/a	n/a	2.53682578	85	5	55.56574116	0
1814.600781	2.7	engage	0	2.07	23.45	24.75	0	n/a	n/a	n/a	n/a	n/a
1824.97447	2.7	forage	0	11.112	n/a	n/a	n/a	-11.1231997	61.66666667	10	52.6783864	0
1839.049294	2.7	engage	0	1.343	75.6	87	0	n/a	n/a	n/a	n/a	n/a
1850.895033	2.7	forage	0	7.231	n/a	n/a	n/a	30.67233707	78.33333333	20	20.58799859	1
1867.282866	2.7	forage	0	6.592	n/a	n/a	n/a	-14.67050283	56.66666667	20	55.68967859	0
1877.730311	2.7	engage	0	0.884	59.95	24.8	1	n/a	n/a	n/a	n/a	n/a
1887.438618	2.7	forage	0	2.17	n/a	n/a	n/a	-12.57267743	65	5	60.90666968	0
1895.262513	2.7	engage	0	3.417	79.8	56.7	1	n/a	n/a	n/a	n/a	n/a
1906.237995	2.7	forage	0	3.667	n/a	n/a	n/a	-11.22897071	58.33333333	5	51.20220311	0
1915.027951	2.7	engage	0	0.636	44	79	0	n/a	n/a	n/a	n/a	n/a
1927.086998	2.7	forage	0	13.137	n/a	n/a	n/a	-23.32775347	66.66666667	10	70.4617474	0
1944.342808	2.7	engage	0	4.824	35.6	47.45	0	n/a	n/a	n/a	n/a	n/a